Bruker Nano GmbH Berlin, Germany
Esprit 1.9

Date: 4/8/2021 12:39:02 PM
Real time: 2148
Life time: 2045
Pulse density: 24450


Detector type: Custom type
Window type: Custom type
Detector thickness: 0.45
Si dead layer:0.08

Calibration, lin.: 10.032
Calibration, abs.: -958.257
Mn FWHM: 143.048
Fano factor: 0.111
Channels: 4096

Energy Counts
-0.9583    0
-0.9482    0
-0.9382    0
-0.9282    0
-0.9181    0
-0.9081    0
-0.8981    0
 -0.888    0
 -0.878    0
 -0.868    0
-0.8579    0
-0.8479    0
-0.8379    0
-0.8278    0
-0.8178    0
-0.8078    0
-0.7977    0
-0.7877    0
-0.7777    0
-0.7676    0
-0.7576    0
-0.7476    0
-0.7376    0
-0.7275    0
-0.7175    0
-0.7075    0
-0.6974    0
-0.6874    0
-0.6774    0
-0.6673    0
-0.6573    0
-0.6473    0
-0.6372    0
-0.6272    0
-0.6172    0
-0.6071    0
-0.5971    0
-0.5871    0
 -0.577    0
 -0.567    0
 -0.557    0
-0.5469    0
-0.5369    0
-0.5269    0
-0.5168    0
-0.5068    0
-0.4968    0
-0.4868    0
-0.4767    0
-0.4667    0
-0.4567    0
-0.4466    0
-0.4366    0
-0.4266    0
-0.4165    0
-0.4065    0
-0.3965    0
-0.3864    0
-0.3764    0
-0.3664    0
-0.3563    0
-0.3463    0
-0.3363    0
-0.3262    0
-0.3162    0
-0.3062    0
-0.2961    0
-0.2861    0
-0.2761    0
 -0.266    0
 -0.256    0
 -0.246    0
 -0.236    0
-0.2259    0
-0.2159    0
-0.2059    0
-0.1958    0
-0.1858    0
-0.1758    0
-0.1657    0
-0.1557    1
-0.1457    0
-0.1356    1
-0.1256    3
-0.1156    4
-0.1055   21
-0.0955   50
-0.0855  106
-0.0754  191
-0.0654  375
-0.0554  627
-0.0453 1016
-0.0353 1405
-0.0253 1795
-0.0152 2196
-0.0052 2365
 0.0048 2369
 0.0148 2185
 0.0249 1843
 0.0349 1446
 0.0449  948
  0.055  648
  0.065  414
  0.075  234
 0.0851  109
 0.0951   47
 0.1051   27
 0.1152    7
 0.1252    2
 0.1352    1
 0.1453    0
 0.1553    0
 0.1653    0
 0.1754    0
 0.1854    0
 0.1954    0
 0.2055    0
 0.2155    0
 0.2255    0
 0.2356    0
 0.2456    0
 0.2556    0
 0.2656    1
 0.2757    1
 0.2857    0
 0.2957    0
 0.3058    0
 0.3158    0
 0.3258    0
 0.3359    0
 0.3459    0
 0.3559    0
  0.366    0
  0.376    0
  0.386    0
 0.3961    0
 0.4061    0
 0.4161    1
 0.4262    1
 0.4362    0
 0.4462    0
 0.4563    0
 0.4663    0
 0.4763    0
 0.4864    0
 0.4964    0
 0.5064    0
 0.5164    0
 0.5265    0
 0.5365    1
 0.5465    0
 0.5566    0
 0.5666    0
 0.5766    0
 0.5867    0
 0.5967    0
 0.6067    0
 0.6168    0
 0.6268    0
 0.6368    0
 0.6469    0
 0.6569    0
 0.6669    0
  0.677    1
  0.687    0
  0.697    0
 0.7071    0
 0.7171    0
 0.7271    1
 0.7372    0
 0.7472    0
 0.7572    0
 0.7672    0
 0.7773    1
 0.7873    0
 0.7973    0
 0.8074    0
 0.8174    1
 0.8274    0
 0.8375    0
 0.8475    1
 0.8575    1
 0.8676    0
 0.8776    0
 0.8876    0
 0.8977    3
 0.9077    2
 0.9177    3
 0.9278    6
 0.9378    4
 0.9478    3
 0.9579    1
 0.9679    3
 0.9779    0
  0.988    2
  0.998    1
  1.008    2
  1.018    0
 1.0281    1
 1.0381    1
 1.0481    1
 1.0582    0
 1.0682    0
 1.0782    0
 1.0883    0
 1.0983    0
 1.1083    1
 1.1184    0
 1.1284    0
 1.1384    0
 1.1485    1
 1.1585    0
 1.1685    0
 1.1786    0
 1.1886    0
 1.1986    0
 1.2087    0
 1.2187    0
 1.2287    0
 1.2388    0
 1.2488    0
 1.2588    1
 1.2688    0
 1.2789    1
 1.2889    0
 1.2989    0
  1.309    0
  1.319    0
  1.329    0
 1.3391    0
 1.3491    0
 1.3591    0
 1.3692    0
 1.3792    0
 1.3892    0
 1.3993    0
 1.4093    0
 1.4193    0
 1.4294    0
 1.4394    0
 1.4494    0
 1.4595    0
 1.4695    0
 1.4795    1
 1.4896    0
 1.4996    0
 1.5096    2
 1.5196    0
 1.5297    0
 1.5397    1
 1.5497    0
 1.5598    0
 1.5698    0
 1.5798    2
 1.5899    1
 1.5999    0
 1.6099    0
   1.62    0
   1.63    0
   1.64    0
 1.6501    1
 1.6601    0
 1.6701    0
 1.6802    0
 1.6902    0
 1.7002    0
 1.7103    0
 1.7203    1
 1.7303    1
 1.7404    0
 1.7504    0
 1.7604    0
 1.7704    0
 1.7805    0
 1.7905    0
 1.8005    0
 1.8106    0
 1.8206    0
 1.8306    0
 1.8407    0
 1.8507    0
 1.8607    0
 1.8708    0
 1.8808    0
 1.8908    0
 1.9009    0
 1.9109    1
 1.9209    0
  1.931    1
  1.941    0
  1.951    2
 1.9611    0
 1.9711    1
 1.9811    0
 1.9912    0
 2.0012    0
 2.0112    0
 2.0212    0
 2.0313    0
 2.0413    0
 2.0513    1
 2.0614    1
 2.0714    0
 2.0814    0
 2.0915    0
 2.1015    1
 2.1115    0
 2.1216    0
 2.1316    0
 2.1416    0
 2.1517    1
 2.1617    1
 2.1717    0
 2.1818    1
 2.1918    2
 2.2018    2
 2.2119    1
 2.2219    0
 2.2319    0
  2.242    0
  2.252    0
  2.262    1
  2.272    0
 2.2821    0
 2.2921    1
 2.3021    1
 2.3122    0
 2.3222    0
 2.3322    0
 2.3423    1
 2.3523    0
 2.3623    0
 2.3724    0
 2.3824    1
 2.3924    0
 2.4025    0
 2.4125    0
 2.4225    0
 2.4326    1
 2.4426    0
 2.4526    1
 2.4627    1
 2.4727    0
 2.4827    0
 2.4928    1
 2.5028    0
 2.5128    1
 2.5228    2
 2.5329    1
 2.5429    0
 2.5529    1
  2.563    1
  2.573    0
  2.583    0
 2.5931    1
 2.6031    0
 2.6131    0
 2.6232    0
 2.6332    1
 2.6432    1
 2.6533    0
 2.6633    0
 2.6733    2
 2.6834    2
 2.6934    0
 2.7034    1
 2.7135    1
 2.7235    0
 2.7335    1
 2.7436    0
 2.7536    0
 2.7636    1
 2.7736    1
 2.7837    1
 2.7937    0
 2.8037    0
 2.8138    1
 2.8238    2
 2.8338    2
 2.8439    0
 2.8539    0
 2.8639    0
  2.874    0
  2.884    1
  2.894    1
 2.9041    1
 2.9141    2
 2.9241    1
 2.9342    0
 2.9442    1
 2.9542    0
 2.9643    1
 2.9743    1
 2.9843    1
 2.9944    0
 3.0044    0
 3.0144    0
 3.0244    0
 3.0345    0
 3.0445    0
 3.0545    0
 3.0646    0
 3.0746    0
 3.0846    0
 3.0947    1
 3.1047    1
 3.1147    1
 3.1248    0
 3.1348    0
 3.1448    0
 3.1549    0
 3.1649    0
 3.1749    0
  3.185    1
  3.195    0
  3.205    1
 3.2151    0
 3.2251    0
 3.2351    0
 3.2452    1
 3.2552    1
 3.2652    1
 3.2752    0
 3.2853    1
 3.2953    0
 3.3053    0
 3.3154    1
 3.3254    1
 3.3354    1
 3.3455    2
 3.3555    1
 3.3655    0
 3.3756    0
 3.3856    0
 3.3956    2
 3.4057    2
 3.4157    1
 3.4257    0
 3.4358    1
 3.4458    0
 3.4558    1
 3.4659    1
 3.4759    1
 3.4859    1
  3.496    0
  3.506    1
  3.516    1
  3.526    0
 3.5361    0
 3.5461    0
 3.5561    0
 3.5662    1
 3.5762    0
 3.5862    0
 3.5963    0
 3.6063    0
 3.6163    1
 3.6264    0
 3.6364    0
 3.6464    0
 3.6565    0
 3.6665    0
 3.6765    0
 3.6866    1
 3.6966    1
 3.7066    0
 3.7167    0
 3.7267    0
 3.7367    1
 3.7468    0
 3.7568    0
 3.7668    0
 3.7768    1
 3.7869    0
 3.7969    0
 3.8069    0
  3.817    1
  3.827    2
  3.837    1
 3.8471    0
 3.8571    0
 3.8671    0
 3.8772    1
 3.8872    1
 3.8972    1
 3.9073    1
 3.9173    1
 3.9273    1
 3.9374    1
 3.9474    1
 3.9574    2
 3.9675    2
 3.9775    0
 3.9875    0
 3.9976    0
 4.0076    0
 4.0176    1
 4.0276    2
 4.0377    1
 4.0477    0
 4.0577    0
 4.0678    1
 4.0778    0
 4.0878    1
 4.0979    0
 4.1079    0
 4.1179    0
  4.128    0
  4.138    1
  4.148    1
 4.1581    0
 4.1681    0
 4.1781    0
 4.1882    0
 4.1982    0
 4.2082    0
 4.2183    0
 4.2283    0
 4.2383    0
 4.2484    0
 4.2584    1
 4.2684    0
 4.2784    1
 4.2885    0
 4.2985    0
 4.3085    0
 4.3186    1
 4.3286    0
 4.3386    0
 4.3487    0
 4.3587    0
 4.3687    0
 4.3788    1
 4.3888    0
 4.3988    1
 4.4089    1
 4.4189    0
 4.4289    0
  4.439    0
  4.449    0
  4.459    0
 4.4691    1
 4.4791    1
 4.4891    1
 4.4992    0
 4.5092    1
 4.5192    0
 4.5292    0
 4.5393    0
 4.5493    1
 4.5593    0
 4.5694    0
 4.5794    0
 4.5894    0
 4.5995    1
 4.6095    0
 4.6195    0
 4.6296    1
 4.6396    0
 4.6496    0
 4.6597    0
 4.6697    0
 4.6797    0
 4.6898    0
 4.6998    0
 4.7098    0
 4.7199    0
 4.7299    0
 4.7399    0
   4.75    1
   4.76    1
   4.77    0
   4.78    0
 4.7901    0
 4.8001    0
 4.8101    0
 4.8202    0
 4.8302    0
 4.8402    0
 4.8503    0
 4.8603    1
 4.8703    0
 4.8804    1
 4.8904    2
 4.9004    0
 4.9105    0
 4.9205    1
 4.9305    0
 4.9406    0
 4.9506    1
 4.9606    0
 4.9707    0
 4.9807    0
 4.9907    0
 5.0008    0
 5.0108    0
 5.0208    0
 5.0308    0
 5.0409    1
 5.0509    1
 5.0609    1
  5.071    0
  5.081    0
  5.091    0
 5.1011    1
 5.1111    0
 5.1211    0
 5.1312    0
 5.1412    0
 5.1512    0
 5.1613    0
 5.1713    0
 5.1813    0
 5.1914    1
 5.2014    0
 5.2114    0
 5.2215    0
 5.2315    0
 5.2415    0
 5.2516    0
 5.2616    1
 5.2716    0
 5.2816    2
 5.2917    2
 5.3017    1
 5.3117    0
 5.3218    1
 5.3318    2
 5.3418    0
 5.3519    1
 5.3619    1
 5.3719    1
  5.382    0
  5.392    0
  5.402    1
 5.4121    0
 5.4221    1
 5.4321    1
 5.4422    1
 5.4522    1
 5.4622    1
 5.4723    2
 5.4823    0
 5.4923    0
 5.5024    1
 5.5124    1
 5.5224    2
 5.5324    0
 5.5425    1
 5.5525    0
 5.5625    0
 5.5726    0
 5.5826    0
 5.5926    2
 5.6027    1
 5.6127    1
 5.6227    1
 5.6328    1
 5.6428    0
 5.6528    0
 5.6629    1
 5.6729    1
 5.6829    0
  5.693    0
  5.703    0
  5.713    0
 5.7231    2
 5.7331    0
 5.7431    0
 5.7532    2
 5.7632    1
 5.7732    1
 5.7832    0
 5.7933    0
 5.8033    0
 5.8133    0
 5.8234    0
 5.8334    0
 5.8434    1
 5.8535    0
 5.8635    0
 5.8735    0
 5.8836    1
 5.8936    1
 5.9036    0
 5.9137    0
 5.9237    1
 5.9337    1
 5.9438    1
 5.9538    0
 5.9638    2
 5.9739    0
 5.9839    3
 5.9939    0
  6.004    0
  6.014    0
  6.024    1
  6.034    1
 6.0441    0
 6.0541    0
 6.0641    3
 6.0742    2
 6.0842    0
 6.0942    0
 6.1043    1
 6.1143    2
 6.1243    0
 6.1344    0
 6.1444    0
 6.1544    1
 6.1645    4
 6.1745    2
 6.1845    1
 6.1946    1
 6.2046    2
 6.2146    4
 6.2247    0
 6.2347    5
 6.2447    6
 6.2548    2
 6.2648    0
 6.2748    5
 6.2848    3
 6.2949    3
 6.3049    5
 6.3149    5
  6.325    0
  6.335    3
  6.345    0
 6.3551    1
 6.3651    4
 6.3751    1
 6.3852    3
 6.3952    3
 6.4052    5
 6.4153    3
 6.4253    4
 6.4353    5
 6.4454    1
 6.4554    5
 6.4654    4
 6.4755    4
 6.4855    3
 6.4955    1
 6.5056    3
 6.5156    0
 6.5256    4
 6.5356    2
 6.5457    2
 6.5557    4
 6.5657    3
 6.5758    0
 6.5858    0
 6.5958    5
 6.6059    2
 6.6159    1
 6.6259    0
  6.636    1
  6.646    2
  6.656    2
 6.6661    4
 6.6761    3
 6.6861    3
 6.6962    0
 6.7062    3
 6.7162    3
 6.7263    0
 6.7363    1
 6.7463    3
 6.7564    1
 6.7664    2
 6.7764    2
 6.7864    1
 6.7965    2
 6.8065    1
 6.8165    2
 6.8266    2
 6.8366    1
 6.8466    1
 6.8567    0
 6.8667    0
 6.8767    0
 6.8868    2
 6.8968    1
 6.9068    2
 6.9169    0
 6.9269    2
 6.9369    3
  6.947    1
  6.957    2
  6.967    2
 6.9771    2
 6.9871    1
 6.9971    4
 7.0072    0
 7.0172    2
 7.0272    3
 7.0372    3
 7.0473    3
 7.0573    0
 7.0673    4
 7.0774    1
 7.0874    0
 7.0974    3
 7.1075    0
 7.1175    1
 7.1275    0
 7.1376    2
 7.1476    2
 7.1576    1
 7.1677    0
 7.1777    3
 7.1877    0
 7.1978    2
 7.2078    0
 7.2178    2
 7.2279    2
 7.2379    0
 7.2479    1
  7.258    2
  7.268    1
  7.278    1
  7.288    0
 7.2981    0
 7.3081    2
 7.3181    1
 7.3282    1
 7.3382    3
 7.3482    1
 7.3583    2
 7.3683    1
 7.3783    1
 7.3884    0
 7.3984    2
 7.4084    1
 7.4185    0
 7.4285    2
 7.4385    0
 7.4486    1
 7.4586    1
 7.4686    3
 7.4787    1
 7.4887    3
 7.4987    2
 7.5088    3
 7.5188    2
 7.5288    2
 7.5388    6
 7.5489    7
 7.5589    2
 7.5689    2
  7.579    2
  7.589    6
  7.599    1
 7.6091    4
 7.6191    7
 7.6291    1
 7.6392    8
 7.6492    5
 7.6592    6
 7.6693    2
 7.6793    2
 7.6893    5
 7.6994    3
 7.7094    5
 7.7194    4
 7.7295    6
 7.7395   10
 7.7495    7
 7.7596    6
 7.7696    5
 7.7796    7
 7.7896    7
 7.7997   22
 7.8097   18
 7.8197   22
 7.8298   30
 7.8398   34
 7.8498   62
 7.8599   67
 7.8699   96
 7.8799  137
   7.89  172
    7.9  248
   7.91  353
 7.9201  419
 7.9301  550
 7.9401  690
 7.9502  871
 7.9602 1023
 7.9702 1303
 7.9803 1514
 7.9903 1692
 8.0003 1909
 8.0104 2029
 8.0204 2287
 8.0304 2367
 8.0404 2441
 8.0505 2427
 8.0605 2383
 8.0705 2356
 8.0806 2137
 8.0906 2105
 8.1006 1813
 8.1107 1681
 8.1207 1396
 8.1307 1211
 8.1408  949
 8.1508  794
 8.1608  655
 8.1709  510
 8.1809  380
 8.1909  260
  8.201  205
  8.211  164
  8.221  128
 8.2311   73
 8.2411   52
 8.2511   45
 8.2612   26
 8.2712   12
 8.2812    8
 8.2912   15
 8.3013    8
 8.3113    8
 8.3213    3
 8.3314    6
 8.3414    4
 8.3514    2
 8.3615    8
 8.3715    2
 8.3815    6
 8.3916    2
 8.4016    3
 8.4116    4
 8.4217    4
 8.4317    5
 8.4417    4
 8.4518    9
 8.4618    7
 8.4718    5
 8.4819    9
 8.4919    7
 8.5019    6
  8.512    2
  8.522    8
  8.532    6
  8.542    7
 8.5521    7
 8.5621    4
 8.5721    6
 8.5822   13
 8.5922    3
 8.6022    6
 8.6123   10
 8.6223    7
 8.6323    4
 8.6424    6
 8.6524   12
 8.6624   16
 8.6725    6
 8.6825   20
 8.6925   10
 8.7026   14
 8.7126   16
 8.7226   21
 8.7327   27
 8.7427   41
 8.7527   40
 8.7628   51
 8.7728   71
 8.7828   73
 8.7928   92
 8.8029  130
 8.8129  136
 8.8229  161
  8.833  182
  8.843  219
  8.853  272
 8.8631  262
 8.8731  313
 8.8831  339
 8.8932  333
 8.9032  328
 8.9132  371
 8.9233  347
 8.9333  351
 8.9433  315
 8.9534  297
 8.9634  279
 8.9734  255
 8.9835  186
 8.9935  190
 9.0035  154
 9.0136  132
 9.0236   93
 9.0336   79
 9.0436   70
 9.0537   48
 9.0637   37
 9.0737   26
 9.0838   19
 9.0938   15
 9.1038    7
 9.1139   10
 9.1239    5
 9.1339    8
  9.144    2
  9.154    2
  9.164    0
 9.1741    1
 9.1841    0
 9.1941    1
 9.2042    0
 9.2142    0
 9.2242    0
 9.2343    1
 9.2443    0
 9.2543    0
 9.2644    0
 9.2744    0
 9.2844    0
 9.2944    0
 9.3045    0
 9.3145    0
 9.3245    1
 9.3346    0
 9.3446    0
 9.3546    0
 9.3647    0
 9.3747    0
 9.3847    1
 9.3948    0
 9.4048    0
 9.4148    1
 9.4249    0
 9.4349    0
 9.4449    0
  9.455    0
  9.465    0
  9.475    1
 9.4851    1
 9.4951    0
 9.5051    0
 9.5152    0
 9.5252    0
 9.5352    0
 9.5452    0
 9.5553    0
 9.5653    0
 9.5753    0
 9.5854    0
 9.5954    0
 9.6054    0
 9.6155    0
 9.6255    0
 9.6355    0
 9.6456    0
 9.6556    1
 9.6656    0
 9.6757    0
 9.6857    0
 9.6957    0
 9.7058    0
 9.7158    1
 9.7258    1
 9.7359    0
 9.7459    0
 9.7559    0
  9.766    0
  9.776    1
  9.786    0
  9.796    1
 9.8061    0
 9.8161    0
 9.8261    1
 9.8362    0
 9.8462    0
 9.8562    0
 9.8663    0
 9.8763    0
 9.8863    0
 9.8964    1
 9.9064    0
 9.9164    0
 9.9265    0
 9.9365    0
 9.9465    1
 9.9566    1
 9.9666    0
 9.9766    0
 9.9867    0
 9.9967    0
10.0067    0
10.0168    0
10.0268    0
10.0368    0
10.0468    1
10.0569    0
10.0669    0
10.0769    0
 10.087    0
 10.097    0
 10.107    0
10.1171    0
10.1271    0
10.1371    0
10.1472    0
10.1572    0
10.1672    0
10.1773    0
10.1873    1
10.1973    0
10.2074    0
10.2174    0
10.2274    0
10.2375    0
10.2475    0
10.2575    0
10.2676    0
10.2776    0
10.2876    1
10.2976    0
10.3077    1
10.3177    0
10.3277    0
10.3378    0
10.3478    0
10.3578    1
10.3679    0
10.3779    0
10.3879    0
 10.398    1
 10.408    1
 10.418    0
10.4281    0
10.4381    0
10.4481    0
10.4582    1
10.4682    0
10.4782    0
10.4883    0
10.4983    0
10.5083    0
10.5184    0
10.5284    0
10.5384    0
10.5484    0
10.5585    0
10.5685    0
10.5785    0
10.5886    0
10.5986    0
10.6086    0
10.6187    0
10.6287    0
10.6387    0
10.6488    0
10.6588    0
10.6688    0
10.6789    0
10.6889    0
10.6989    1
 10.709    0
 10.719    0
 10.729    1
10.7391    0
10.7491    0
10.7591    0
10.7692    0
10.7792    0
10.7892    0
10.7992    0
10.8093    0
10.8193    0
10.8293    0
10.8394    0
10.8494    1
10.8594    0
10.8695    0
10.8795    0
10.8895    0
10.8996    0
10.9096    1
10.9196    0
10.9297    0
10.9397    0
10.9497    0
10.9598    0
10.9698    0
10.9798    0
10.9899    0
10.9999    0
11.0099    0
  11.02    0
  11.03    0
  11.04    0
  11.05    0
11.0601    0
11.0701    1
11.0801    1
11.0902    0
11.1002    1
11.1102    0
11.1203    1
11.1303    0
11.1403    0
11.1504    0
11.1604    0
11.1704    0
11.1805    0
11.1905    0
11.2005    0
11.2106    0
11.2206    1
11.2306    0
11.2407    1
11.2507    0
11.2607    0
11.2708    0
11.2808    0
11.2908    1
11.3008    0
11.3109    1
11.3209    3
11.3309    0
 11.341    0
 11.351    0
 11.361    0
11.3711    0
11.3811    2
11.3911    0
11.4012    0
11.4112    1
11.4212    0
11.4313    1
11.4413    0
11.4513    1
11.4614    1
11.4714    0
11.4814    0
11.4915    1
11.5015    0
11.5115    1
11.5216    1
11.5316    0
11.5416    0
11.5516    0
11.5617    2
11.5717    0
11.5817    0
11.5918    0
11.6018    0
11.6118    0
11.6219    0
11.6319    0
11.6419    1
 11.652    0
 11.662    1
 11.672    1
11.6821    1
11.6921    1
11.7021    1
11.7122    2
11.7222    1
11.7322    0
11.7423    0
11.7523    0
11.7623    0
11.7724    0
11.7824    0
11.7924    0
11.8024    0
11.8125    1
11.8225    0
11.8325    1
11.8426    0
11.8526    2
11.8626    0
11.8727    1
11.8827    0
11.8927    0
11.9028    0
11.9128    0
11.9228    0
11.9329    0
11.9429    1
11.9529    0
 11.963    1
 11.973    0
 11.983    0
11.9931    0
12.0031    0
12.0131    0
12.0232    1
12.0332    0
12.0432    1
12.0532    0
12.0633    0
12.0733    0
12.0833    0
12.0934    0
12.1034    0
12.1134    0
12.1235    1
12.1335    0
12.1435    0
12.1536    0
12.1636    0
12.1736    0
12.1837    0
12.1937    0
12.2037    0
12.2138    0
12.2238    0
12.2338    1
12.2439    0
12.2539    1
12.2639    0
 12.274    0
 12.284    0
 12.294    0
 12.304    0
12.3141    0
12.3241    1
12.3341    2
12.3442    0
12.3542    0
12.3642    0
12.3743    0
12.3843    0
12.3943    1
12.4044    0
12.4144    0
12.4244    0
12.4345    0
12.4445    0
12.4545    0
12.4646    0
12.4746    0
12.4846    1
12.4947    0
12.5047    0
12.5147    0
12.5248    0
12.5348    0
12.5448    1
12.5548    0
12.5649    0
12.5749    0
12.5849    0
 12.595    0
 12.605    1
 12.615    0
12.6251    0
12.6351    0
12.6451    0
12.6552    0
12.6652    0
12.6752    0
12.6853    1
12.6953    0
12.7053    0
12.7154    0
12.7254    0
12.7354    0
12.7455    0
12.7555    0
12.7655    0
12.7756    0
12.7856    0
12.7956    0
12.8056    0
12.8157    1
12.8257    0
12.8357    0
12.8458    0
12.8558    0
12.8658    1
12.8759    0
12.8859    1
12.8959    0
 12.906    0
 12.916    0
 12.926    0
12.9361    1
12.9461    2
12.9561    0
12.9662    0
12.9762    0
12.9862    0
12.9963    0
13.0063    1
13.0163    0
13.0264    0
13.0364    0
13.0464    1
13.0564    0
13.0665    0
13.0765    1
13.0865    0
13.0966    0
13.1066    1
13.1166    1
13.1267    0
13.1367    0
13.1467    0
13.1568    0
13.1668    0
13.1768    0
13.1869    0
13.1969    0
13.2069    0
 13.217    0
 13.227    0
 13.237    1
13.2471    1
13.2571    0
13.2671    0
13.2772    0
13.2872    0
13.2972    0
13.3072    1
13.3173    0
13.3273    0
13.3373    0
13.3474    1
13.3574    0
13.3674    0
13.3775    1
13.3875    1
13.3975    0
13.4076    0
13.4176    0
13.4276    0
13.4377    0
13.4477    0
13.4577    1
13.4678    0
13.4778    0
13.4878    1
13.4979    0
13.5079    1
13.5179    1
 13.528    0
 13.538    1
 13.548    1
 13.558    0
13.5681    0
13.5781    1
13.5881    0
13.5982    0
13.6082    0
13.6182    0
13.6283    0
13.6383    0
13.6483    0
13.6584    0
13.6684    0
13.6784    0
13.6885    0
13.6985    0
13.7085    0
13.7186    0
13.7286    1
13.7386    1
13.7487    0
13.7587    0
13.7687    1
13.7788    0
13.7888    0
13.7988    0
13.8088    0
13.8189    1
13.8289    0
13.8389    1
 13.849    0
 13.859    0
 13.869    0
13.8791    0
13.8891    0
13.8991    0
13.9092    0
13.9192    0
13.9292    0
13.9393    0
13.9493    1
13.9593    0
13.9694    0
13.9794    0
13.9894    0
13.9995    0
14.0095    0
14.0195    0
14.0296    0
14.0396    0
14.0496    0
14.0596    0
14.0697    0
14.0797    0
14.0897    0
14.0998    0
14.1098    0
14.1198    1
14.1299    0
14.1399    0
14.1499    0
  14.16    0
  14.17    0
  14.18    0
14.1901    0
14.2001    0
14.2101    0
14.2202    0
14.2302    0
14.2402    0
14.2503    0
14.2603    1
14.2703    0
14.2804    0
14.2904    0
14.3004    1
14.3104    0
14.3205    0
14.3305    1
14.3405    0
14.3506    0
14.3606    0
14.3706    0
14.3807    2
14.3907    0
14.4007    0
14.4108    0
14.4208    1
14.4308    1
14.4409    0
14.4509    0
14.4609    1
 14.471    0
 14.481    1
 14.491    0
14.5011    1
14.5111    0
14.5211    0
14.5312    0
14.5412    0
14.5512    1
14.5612    1
14.5713    0
14.5813    0
14.5913    0
14.6014    0
14.6114    1
14.6214    1
14.6315    0
14.6415    1
14.6515    1
14.6616    0
14.6716    0
14.6816    0
14.6917    0
14.7017    0
14.7117    1
14.7218    0
14.7318    0
14.7418    0
14.7519    0
14.7619    0
14.7719    0
 14.782    0
 14.792    0
 14.802    1
 14.812    0
14.8221    0
14.8321    0
14.8421    0
14.8522    0
14.8622    2
14.8722    1
14.8823    1
14.8923    0
14.9023    0
14.9124    0
14.9224    1
14.9324    0
14.9425    1
14.9525    0
14.9625    0
14.9726    0
14.9826    0
14.9926    0
15.0027    0
15.0127    0
15.0227    0
15.0328    0
15.0428    0
15.0528    0
15.0628    0
15.0729    0
15.0829    0
15.0929    1
 15.103    1
 15.113    0
 15.123    0
15.1331    0
15.1431    0
15.1531    0
15.1632    1
15.1732    0
15.1832    0
15.1933    0
15.2033    0
15.2133    0
15.2234    0
15.2334    1
15.2434    0
15.2535    0
15.2635    0
15.2735    0
15.2836    0
15.2936    1
15.3036    0
15.3136    0
15.3237    0
15.3337    0
15.3437    0
15.3538    0
15.3638    0
15.3738    1
15.3839    0
15.3939    0
15.4039    0
 15.414    1
 15.424    1
 15.434    1
15.4441    0
15.4541    0
15.4641    0
15.4742    0
15.4842    0
15.4942    0
15.5043    0
15.5143    0
15.5243    0
15.5344    1
15.5444    0
15.5544    0
15.5644    0
15.5745    0
15.5845    0
15.5945    0
15.6046    0
15.6146    0
15.6246    0
15.6347    0
15.6447    0
15.6547    0
15.6648    0
15.6748    0
15.6848    0
15.6949    0
15.7049    0
15.7149    0
 15.725    0
 15.735    0
 15.745    2
15.7551    0
15.7651    0
15.7751    1
15.7852    0
15.7952    1
15.8052    0
15.8152    2
15.8253    0
15.8353    0
15.8453    0
15.8554    0
15.8654    0
15.8754    0
15.8855    0
15.8955    0
15.9055    0
15.9156    0
15.9256    0
15.9356    1
15.9457    0
15.9557    1
15.9657    1
15.9758    1
15.9858    1
15.9958    3
16.0059    2
16.0159    1
16.0259    1
 16.036    1
 16.046    3
 16.056    6
 16.066    2
16.0761    5
16.0861    3
16.0961    3
16.1062    4
16.1162    1
16.1262    3
16.1363    2
16.1463    5
16.1563    2
16.1664    0
16.1764    2
16.1864    2
16.1965    1
16.2065    0
16.2165    0
16.2266    0
16.2366    1
16.2466    0
16.2567    0
16.2667    0
16.2767    2
16.2868    0
16.2968    1
16.3068    0
16.3168    0
16.3269    0
16.3369    0
16.3469    0
 16.357    0
 16.367    0
 16.377    1
16.3871    0
16.3971    0
16.4071    0
16.4172    1
16.4272    0
16.4372    0
16.4473    2
16.4573    0
16.4673    1
16.4774    0
16.4874    0
16.4974    0
16.5075    0
16.5175    0
16.5275    3
16.5376    0
16.5476    0
16.5576    1
16.5676    0
16.5777    0
16.5877    0
16.5977    0
16.6078    0
16.6178    0
16.6278    1
16.6379    0
16.6479    0
16.6579    0
 16.668    0
 16.678    2
 16.688    0
16.6981    1
16.7081    0
16.7181    0
16.7282    1
16.7382    0
16.7482    0
16.7583    0
16.7683    0
16.7783    0
16.7884    1
16.7984    1
16.8084    0
16.8184    1
16.8285    0
16.8385    0
16.8485    1
16.8586    1
16.8686    0
16.8786    0
16.8887    1
16.8987    0
16.9087    1
16.9188    1
16.9288    2
16.9388    1
16.9489    1
16.9589    0
16.9689    1
 16.979    0
 16.989    0
 16.999    1
17.0091    1
17.0191    0
17.0291    2
17.0392    0
17.0492    1
17.0592    0
17.0692    1
17.0793    0
17.0893    0
17.0993    0
17.1094    1
17.1194    1
17.1294    0
17.1395    0
17.1495    0
17.1595    1
17.1696    0
17.1796    0
17.1896    0
17.1997    0
17.2097    0
17.2197    0
17.2298    0
17.2398    1
17.2498    0
17.2599    0
17.2699    1
17.2799    0
  17.29    0
   17.3    0
  17.31    0
  17.32    0
17.3301    0
17.3401    0
17.3501    0
17.3602    0
17.3702    0
17.3802    0
17.3903    1
17.4003    0
17.4103    0
17.4204    0
17.4304    0
17.4404    0
17.4505    0
17.4605    0
17.4705    1
17.4806    0
17.4906    0
17.5006    0
17.5107    2
17.5207    0
17.5307    0
17.5408    0
17.5508    0
17.5608    0
17.5708    0
17.5809    0
17.5909    0
17.6009    1
 17.611    0
 17.621    0
 17.631    0
17.6411    1
17.6511    0
17.6611    0
17.6712    1
17.6812    0
17.6912    0
17.7013    1
17.7113    0
17.7213    0
17.7314    1
17.7414    0
17.7514    0
17.7615    0
17.7715    0
17.7815    0
17.7916    0
17.8016    0
17.8116    1
17.8216    1
17.8317    1
17.8417    0
17.8517    0
17.8618    1
17.8718    1
17.8818    0
17.8919    0
17.9019    1
17.9119    0
 17.922    1
 17.932    1
 17.942    0
17.9521    1
17.9621    0
17.9721    0
17.9822    1
17.9922    0
18.0022    0
18.0123    0
18.0223    1
18.0323    0
18.0424    0
18.0524    0
18.0624    1
18.0724    0
18.0825    0
18.0925    0
18.1025    0
18.1126    0
18.1226    0
18.1326    0
18.1427    0
18.1527    0
18.1627    0
18.1728    0
18.1828    0
18.1928    1
18.2029    0
18.2129    0
18.2229    0
 18.233    0
 18.243    1
 18.253    0
18.2631    1
18.2731    0
18.2831    0
18.2932    0
18.3032    0
18.3132    0
18.3232    1
18.3333    0
18.3433    2
18.3533    1
18.3634    0
18.3734    0
18.3834    1
18.3935    0
18.4035    0
18.4135    0
18.4236    0
18.4336    0
18.4436    1
18.4537    0
18.4637    0
18.4737    0
18.4838    1
18.4938    0
18.5038    1
18.5139    1
18.5239    0
18.5339    3
 18.544    0
 18.554    0
 18.564    0
 18.574    0
18.5841    0
18.5941    0
18.6041    2
18.6142    1
18.6242    1
18.6342    0
18.6443    0
18.6543    1
18.6643    1
18.6744    0
18.6844    0
18.6944    0
18.7045    3
18.7145    1
18.7245    0
18.7346    0
18.7446    1
18.7546    0
18.7647    1
18.7747    1
18.7847    0
18.7948    0
18.8048    1
18.8148    0
18.8248    0
18.8349    0
18.8449    0
18.8549    0
 18.865    0
 18.875    1
 18.885    0
18.8951    0
18.9051    0
18.9151    1
18.9252    1
18.9352    0
18.9452    0
18.9553    1
18.9653    3
18.9753    0
18.9854    2
18.9954    1
19.0054    2
19.0155    0
19.0255    1
19.0355    0
19.0456    0
19.0556    1
19.0656    1
19.0756    1
19.0857    1
19.0957    2
19.1057    1
19.1158    1
19.1258    0
19.1358    0
19.1459    1
19.1559    1
19.1659    1
 19.176    1
 19.186    0
 19.196    2
19.2061    0
19.2161    1
19.2261    1
19.2362    0
19.2462    0
19.2562    0
19.2663    2
19.2763    1
19.2863    1
19.2964    0
19.3064    0
19.3164    0
19.3264    0
19.3365    2
19.3465    0
19.3565    0
19.3666    0
19.3766    0
19.3866    0
19.3967    0
19.4067    0
19.4167    1
19.4268    0
19.4368    0
19.4468    0
19.4569    0
19.4669    1
19.4769    0
 19.487    0
 19.497    1
 19.507    0
19.5171    0
19.5271    0
19.5371    0
19.5472    0
19.5572    3
19.5672    0
19.5772    0
19.5873    1
19.5973    0
19.6073    1
19.6174    1
19.6274    0
19.6374    0
19.6475    0
19.6575    0
19.6675    0
19.6776    1
19.6876    0
19.6976    0
19.7077    0
19.7177    1
19.7277    0
19.7378    0
19.7478    0
19.7578    0
19.7679    0
19.7779    0
19.7879    1
 19.798    1
 19.808    0
 19.818    1
 19.828    1
19.8381    0
19.8481    0
19.8581    0
19.8682    0
19.8782    0
19.8882    2
19.8983    0
19.9083    0
19.9183    0
19.9284    0
19.9384    1
19.9484    0
19.9585    1
19.9685    1
19.9785    1
19.9886    2
19.9986    1
20.0086    1
20.0187    1
20.0287    0
20.0387    3
20.0488    0
20.0588    1
20.0688    3
20.0788    4
20.0889    3
20.0989    1
20.1089    6
 20.119    2
 20.129    2
 20.139    4
20.1491    5
20.1591    2
20.1691    1
20.1792    1
20.1892    1
20.1992    2
20.2093    3
20.2193    0
20.2293    2
20.2394    3
20.2494    1
20.2594    1
20.2695    4
20.2795    0
20.2895    1
20.2996    1
20.3096    1
20.3196    0
20.3296    0
20.3397    1
20.3497    0
20.3597    1
20.3698    1
20.3798    0
20.3898    0
20.3999    0
20.4099    0
20.4199    0
  20.43    0
  20.44    0
  20.45    0
20.4601    1
20.4701    0
20.4801    1
20.4902    0
20.5002    0
20.5102    0
20.5203    0
20.5303    1
20.5403    1
20.5504    0
20.5604    0
20.5704    0
20.5804    0
20.5905    0
20.6005    0
20.6105    0
20.6206    0
20.6306    0
20.6406    0
20.6507    0
20.6607    0
20.6707    0
20.6808    1
20.6908    0
20.7008    1
20.7109    0
20.7209    0
20.7309    0
 20.741    0
 20.751    1
 20.761    0
20.7711    0
20.7811    0
20.7911    0
20.8012    2
20.8112    0
20.8212    0
20.8312    0
20.8413    0
20.8513    1
20.8613    0
20.8714    0
20.8814    0
20.8914    1
20.9015    0
20.9115    0
20.9215    0
20.9316    0
20.9416    1
20.9516    0
20.9617    0
20.9717    0
20.9817    0
20.9918    0
21.0018    0
21.0118    0
21.0219    0
21.0319    2
21.0419    0
 21.052    1
 21.062    0
 21.072    0
 21.082    0
21.0921    0
21.1021    1
21.1121    0
21.1222    0
21.1322    0
21.1422    2
21.1523    1
21.1623    0
21.1723    1
21.1824    0
21.1924    0
21.2024    0
21.2125    1
21.2225    0
21.2325    0
21.2426    0
21.2526    1
21.2626    0
21.2727    0
21.2827    0
21.2927    0
21.3028    0
21.3128    0
21.3228    0
21.3328    1
21.3429    0
21.3529    0
21.3629    1
 21.373    0
 21.383    0
 21.393    1
21.4031    1
21.4131    0
21.4231    1
21.4332    0
21.4432    0
21.4532    0
21.4633    0
21.4733    0
21.4833    0
21.4934    0
21.5034    0
21.5134    0
21.5235    0
21.5335    0
21.5435    0
21.5536    0
21.5636    0
21.5736    0
21.5836    0
21.5937    0
21.6037    0
21.6137    0
21.6238    0
21.6338    0
21.6438    0
21.6539    0
21.6639    0
21.6739    0
 21.684    1
 21.694    0
 21.704    0
21.7141    0
21.7241    0
21.7341    0
21.7442    0
21.7542    0
21.7642    0
21.7743    0
21.7843    0
21.7943    0
21.8044    0
21.8144    0
21.8244    0
21.8344    0
21.8445    1
21.8545    0
21.8645    0
21.8746    0
21.8846    1
21.8946    0
21.9047    0
21.9147    0
21.9247    0
21.9348    0
21.9448    0
21.9548    0
21.9649    0
21.9749    0
21.9849    1
 21.995    0
 22.005    0
 22.015    0
22.0251    1
22.0351    0
22.0451    0
22.0552    0
22.0652    0
22.0752    0
22.0852    0
22.0953    0
22.1053    0
22.1153    0
22.1254    0
22.1354    0
22.1454    0
22.1555    0
22.1655    0
22.1755    0
22.1856    1
22.1956    0
22.2056    0
22.2157    0
22.2257    0
22.2357    0
22.2458    0
22.2558    1
22.2658    0
22.2759    1
22.2859    0
22.2959    0
 22.306    1
 22.316    0
 22.326    0
 22.336    0
22.3461    0
22.3561    0
22.3661    0
22.3762    0
22.3862    0
22.3962    0
22.4063    0
22.4163    0
22.4263    0
22.4364    0
22.4464    0
22.4564    1
22.4665    0
22.4765    0
22.4865    0
22.4966    0
22.5066    0
22.5166    1
22.5267    1
22.5367    1
22.5467    0
22.5568    0
22.5668    0
22.5768    1
22.5868    0
22.5969    0
22.6069    0
22.6169    0
 22.627    2
 22.637    0
 22.647    0
22.6571    0
22.6671    0
22.6771    0
22.6872    0
22.6972    0
22.7072    0
22.7173    0
22.7273    0
22.7373    0
22.7474    1
22.7574    0
22.7674    1
22.7775    1
22.7875    0
22.7975    0
22.8076    0
22.8176    0
22.8276    0
22.8376    1
22.8477    0
22.8577    0
22.8677    0
22.8778    0
22.8878    0
22.8978    0
22.9079    0
22.9179    0
22.9279    0
 22.938    0
 22.948    0
 22.958    0
22.9681    0
22.9781    0
22.9881    0
22.9982    1
23.0082    0
23.0182    0
23.0283    0
23.0383    0
23.0483    0
23.0584    0
23.0684    0
23.0784    0
23.0884    0
23.0985    0
23.1085    0
23.1185    0
23.1286    0
23.1386    0
23.1486    0
23.1587    0
23.1687    0
23.1787    0
23.1888    0
23.1988    0
23.2088    0
23.2189    0
23.2289    0
23.2389    0
 23.249    0
 23.259    0
 23.269    0
23.2791    0
23.2891    0
23.2991    0
23.3092    0
23.3192    1
23.3292    0
23.3392    0
23.3493    0
23.3593    0
23.3693    0
23.3794    0
23.3894    0
23.3994    0
23.4095    0
23.4195    0
23.4295    0
23.4396    0
23.4496    0
23.4596    0
23.4697    0
23.4797    0
23.4897    1
23.4998    0
23.5098    0
23.5198    0
23.5299    0
23.5399    0
23.5499    0
  23.56    0
  23.57    0
  23.58    0
  23.59    0
23.6001    0
23.6101    0
23.6201    0
23.6302    0
23.6402    0
23.6502    0
23.6603    0
23.6703    0
23.6803    0
23.6904    0
23.7004    0
23.7104    0
23.7205    0
23.7305    1
23.7405    0
23.7506    0
23.7606    0
23.7706    0
23.7807    0
23.7907    0
23.8007    0
23.8108    0
23.8208    0
23.8308    0
23.8408    0
23.8509    0
23.8609    0
23.8709    0
 23.881    0
 23.891    0
 23.901    0
23.9111    0
23.9211    0
23.9311    0
23.9412    1
23.9512    0
23.9612    0
23.9713    0
23.9813    0
23.9913    0
24.0014    0
24.0114    0
24.0214    1
24.0315    0
24.0415    0
24.0515    0
24.0616    0
24.0716    0
24.0816    0
24.0916    0
24.1017    0
24.1117    0
24.1217    0
24.1318    0
24.1418    1
24.1518    0
24.1619    0
24.1719    0
24.1819    0
 24.192    0
 24.202    0
 24.212    0
24.2221    0
24.2321    0
24.2421    0
24.2522    0
24.2622    0
24.2722    0
24.2823    0
24.2923    0
24.3023    0
24.3124    0
24.3224    0
24.3324    0
24.3424    0
24.3525    0
24.3625    0
24.3725    0
24.3826    0
24.3926    0
24.4026    0
24.4127    0
24.4227    0
24.4327    0
24.4428    0
24.4528    0
24.4628    0
24.4729    0
24.4829    0
24.4929    0
 24.503    0
 24.513    1
 24.523    0
24.5331    1
24.5431    0
24.5531    0
24.5632    0
24.5732    0
24.5832    0
24.5932    0
24.6033    0
24.6133    0
24.6233    0
24.6334    0
24.6434    0
24.6534    0
24.6635    0
24.6735    1
24.6835    0
24.6936    0
24.7036    0
24.7136    0
24.7237    0
24.7337    0
24.7437    0
24.7538    0
24.7638    1
24.7738    0
24.7839    0
24.7939    0
24.8039    0
 24.814    0
 24.824    0
 24.834    0
 24.844    0
24.8541    0
24.8641    0
24.8741    0
24.8842    0
24.8942    0
24.9042    0
24.9143    0
24.9243    0
24.9343    0
24.9444    0
24.9544    0
24.9644    0
24.9745    0
24.9845    0
24.9945    0
25.0046    0
25.0146    0
25.0246    0
25.0347    0
25.0447    0
25.0547    0
25.0648    0
25.0748    0
25.0848    1
25.0948    0
25.1049    0
25.1149    0
25.1249    0
 25.135    1
 25.145    0
 25.155    0
25.1651    0
25.1751    0
25.1851    0
25.1952    0
25.2052    0
25.2152    0
25.2253    0
25.2353    0
25.2453    0
25.2554    0
25.2654    0
25.2754    0
25.2855    0
25.2955    1
25.3055    0
25.3156    0
25.3256    0
25.3356    0
25.3456    0
25.3557    0
25.3657    0
25.3757    0
25.3858    0
25.3958    0
25.4058    0
25.4159    0
25.4259    0
25.4359    0
 25.446    0
 25.456    0
 25.466    0
25.4761    0
25.4861    0
25.4961    0
25.5062    0
25.5162    0
25.5262    0
25.5363    0
25.5463    0
25.5563    0
25.5664    0
25.5764    0
25.5864    0
25.5964    1
25.6065    0
25.6165    0
25.6265    0
25.6366    0
25.6466    0
25.6566    0
25.6667    0
25.6767    0
25.6867    0
25.6968    1
25.7068    0
25.7168    0
25.7269    0
25.7369    0
25.7469    0
 25.757    0
 25.767    0
 25.777    0
25.7871    0
25.7971    0
25.8071    0
25.8172    0
25.8272    0
25.8372    0
25.8472    0
25.8573    1
25.8673    0
25.8773    0
25.8874    0
25.8974    0
25.9074    0
25.9175    0
25.9275    0
25.9375    0
25.9476    0
25.9576    0
25.9676    0
25.9777    0
25.9877    0
25.9977    0
26.0078    0
26.0178    1
26.0278    0
26.0379    0
26.0479    0
26.0579    0
 26.068    0
 26.078    0
 26.088    0
 26.098    0
26.1081    0
26.1181    0
26.1281    0
26.1382    0
26.1482    0
26.1582    0
26.1683    0
26.1783    0
26.1883    0
26.1984    0
26.2084    0
26.2184    0
26.2285    0
26.2385    0
26.2485    0
26.2586    0
26.2686    0
26.2786    0
26.2887    0
26.2987    0
26.3087    0
26.3188    0
26.3288    0
26.3388    0
26.3488    0
26.3589    0
26.3689    0
26.3789    0
 26.389    0
 26.399    0
 26.409    0
26.4191    0
26.4291    0
26.4391    0
26.4492    0
26.4592    0
26.4692    0
26.4793    0
26.4893    0
26.4993    0
26.5094    0
26.5194    0
26.5294    0
26.5395    0
26.5495    0
26.5595    0
26.5696    0
26.5796    0
26.5896    0
26.5996    0
26.6097    0
26.6197    0
26.6297    0
26.6398    0
26.6498    0
26.6598    0
26.6699    0
26.6799    0
26.6899    0
   26.7    0
  26.71    0
  26.72    0
26.7301    0
26.7401    0
26.7501    0
26.7602    0
26.7702    0
26.7802    0
26.7903    0
26.8003    0
26.8103    0
26.8204    0
26.8304    0
26.8404    0
26.8504    0
26.8605    0
26.8705    1
26.8805    0
26.8906    0
26.9006    0
26.9106    0
26.9207    0
26.9307    0
26.9407    0
26.9508    0
26.9608    0
26.9708    0
26.9809    0
26.9909    0
27.0009    0
 27.011    0
 27.021    0
 27.031    0
27.0411    0
27.0511    0
27.0611    1
27.0712    0
27.0812    0
27.0912    0
27.1012    0
27.1113    0
27.1213    0
27.1313    0
27.1414    0
27.1514    1
27.1614    0
27.1715    0
27.1815    0
27.1915    0
27.2016    0
27.2116    0
27.2216    0
27.2317    0
27.2417    0
27.2517    0
27.2618    0
27.2718    0
27.2818    0
27.2919    0
27.3019    0
27.3119    0
 27.322    0
 27.332    0
 27.342    1
 27.352    0
27.3621    0
27.3721    0
27.3821    0
27.3922    0
27.4022    0
27.4122    0
27.4223    0
27.4323    1
27.4423    0
27.4524    0
27.4624    0
27.4724    0
27.4825    0
27.4925    0
27.5025    0
27.5126    0
27.5226    0
27.5326    0
27.5427    0
27.5527    0
27.5627    0
27.5728    0
27.5828    0
27.5928    0
27.6028    0
27.6129    1
27.6229    0
27.6329    0
 27.643    0
 27.653    0
 27.663    0
27.6731    0
27.6831    0
27.6931    0
27.7032    0
27.7132    0
27.7232    0
27.7333    0
27.7433    0
27.7533    0
27.7634    1
27.7734    0
27.7834    0
27.7935    0
27.8035    0
27.8135    0
27.8236    0
27.8336    0
27.8436    0
27.8536    0
27.8637    0
27.8737    0
27.8837    0
27.8938    0
27.9038    0
27.9138    0
27.9239    0
27.9339    0
27.9439    0
 27.954    0
 27.964    0
 27.974    0
27.9841    0
27.9941    0
28.0041    0
28.0142    0
28.0242    0
28.0342    0
28.0443    0
28.0543    0
28.0643    0
28.0744    0
28.0844    1
28.0944    0
28.1044    0
28.1145    0
28.1245    0
28.1345    0
28.1446    0
28.1546    0
28.1646    0
28.1747    0
28.1847    0
28.1947    0
28.2048    0
28.2148    1
28.2248    0
28.2349    0
28.2449    0
28.2549    0
 28.265    0
 28.275    0
 28.285    0
28.2951    0
28.3051    0
28.3151    0
28.3252    0
28.3352    0
28.3452    0
28.3552    0
28.3653    0
28.3753    0
28.3853    0
28.3954    1
28.4054    0
28.4154    0
28.4255    0
28.4355    0
28.4455    0
28.4556    0
28.4656    0
28.4756    0
28.4857    0
28.4957    0
28.5057    0
28.5158    0
28.5258    0
28.5358    0
28.5459    0
28.5559    0
28.5659    0
 28.576    0
 28.586    0
 28.596    0
 28.606    0
28.6161    0
28.6261    0
28.6361    0
28.6462    0
28.6562    0
28.6662    0
28.6763    0
28.6863    0
28.6963    0
28.7064    0
28.7164    1
28.7264    0
28.7365    0
28.7465    0
28.7565    0
28.7666    0
28.7766    0
28.7866    0
28.7967    0
28.8067    0
28.8167    2
28.8268    0
28.8368    0
28.8468    0
28.8568    1
28.8669    0
28.8769    0
28.8869    0
 28.897    0
 28.907    0
 28.917    0
28.9271    0
28.9371    0
28.9471    0
28.9572    0
28.9672    0
28.9772    0
28.9873    0
28.9973    0
29.0073    0
29.0174    0
29.0274    0
29.0374    0
29.0475    0
29.0575    0
29.0675    0
29.0776    1
29.0876    0
29.0976    0
29.1076    0
29.1177    0
29.1277    0
29.1377    0
29.1478    0
29.1578    0
29.1678    0
29.1779    0
29.1879    0
29.1979    0
 29.208    0
 29.218    0
 29.228    0
29.2381    1
29.2481    0
29.2581    0
29.2682    0
29.2782    0
29.2882    0
29.2983    0
29.3083    0
29.3183    0
29.3284    0
29.3384    0
29.3484    0
29.3584    0
29.3685    0
29.3785    0
29.3885    0
29.3986    0
29.4086    0
29.4186    1
29.4287    0
29.4387    0
29.4487    0
29.4588    0
29.4688    0
29.4788    0
29.4889    0
29.4989    0
29.5089    0
 29.519    0
 29.529    0
 29.539    0
29.5491    0
29.5591    0
29.5691    0
29.5792    0
29.5892    0
29.5992    0
29.6092    0
29.6193    0
29.6293    0
29.6393    0
29.6494    0
29.6594    0
29.6694    0
29.6795    0
29.6895    0
29.6995    0
29.7096    0
29.7196    0
29.7296    0
29.7397    0
29.7497    0
29.7597    0
29.7698    0
29.7798    0
29.7898    1
29.7999    0
29.8099    0
29.8199    0
  29.83    0
  29.84    0
  29.85    1
  29.86    0
29.8701    0
29.8801    0
29.8901    0
29.9002    0
29.9102    0
29.9202    0
29.9303    0
29.9403    0
29.9503    0
29.9604    0
29.9704    0
29.9804    0
29.9905    0
30.0005    0
30.0105    0
30.0206    0
30.0306    0
30.0406    0
30.0507    0
30.0607    0
30.0707    0
30.0808    0
30.0908    0
30.1008    0
30.1108    0
30.1209    0
30.1309    0
30.1409    0
 30.151    0
 30.161    0
 30.171    0
30.1811    0
30.1911    0
30.2011    0
30.2112    0
30.2212    0
30.2312    0
30.2413    0
30.2513    0
30.2613    0
30.2714    0
30.2814    0
30.2914    0
30.3015    0
30.3115    0
30.3215    0
30.3316    0
30.3416    0
30.3516    0
30.3616    0
30.3717    0
30.3817    0
30.3917    0
30.4018    0
30.4118    0
30.4218    0
30.4319    0
30.4419    0
30.4519    0
 30.462    0
 30.472    0
 30.482    0
30.4921    0
30.5021    0
30.5121    0
30.5222    0
30.5322    0
30.5422    0
30.5523    0
30.5623    1
30.5723    0
30.5824    0
30.5924    0
30.6024    0
30.6124    0
30.6225    0
30.6325    0
30.6425    0
30.6526    0
30.6626    0
30.6726    0
30.6827    0
30.6927    0
30.7027    0
30.7128    0
30.7228    0
30.7328    0
30.7429    0
30.7529    0
30.7629    0
 30.773    0
 30.783    0
 30.793    0
30.8031    0
30.8131    0
30.8231    0
30.8332    0
30.8432    0
30.8532    0
30.8632    0
30.8733    0
30.8833    0
30.8933    0
30.9034    0
30.9134    0
30.9234    0
30.9335    0
30.9435    0
30.9535    0
30.9636    0
30.9736    0
30.9836    0
30.9937    0
31.0037    0
31.0137    0
31.0238    0
31.0338    1
31.0438    0
31.0539    0
31.0639    0
31.0739    0
 31.084    0
 31.094    0
 31.104    0
 31.114    0
31.1241    0
31.1341    0
31.1441    0
31.1542    0
31.1642    0
31.1742    0
31.1843    0
31.1943    0
31.2043    0
31.2144    0
31.2244    0
31.2344    0
31.2445    0
31.2545    0
31.2645    0
31.2746    0
31.2846    0
31.2946    0
31.3047    0
31.3147    0
31.3247    0
31.3348    0
31.3448    0
31.3548    0
31.3648    0
31.3749    0
31.3849    0
31.3949    0
 31.405    0
 31.415    0
 31.425    0
31.4351    0
31.4451    0
31.4551    0
31.4652    0
31.4752    0
31.4852    0
31.4953    0
31.5053    0
31.5153    0
31.5254    0
31.5354    0
31.5454    0
31.5555    0
31.5655    0
31.5755    0
31.5856    0
31.5956    0
31.6056    0
31.6156    0
31.6257    0
31.6357    0
31.6457    0
31.6558    0
31.6658    0
31.6758    0
31.6859    0
31.6959    0
31.7059    0
 31.716    1
 31.726    0
 31.736    0
31.7461    0
31.7561    0
31.7661    0
31.7762    0
31.7862    0
31.7962    0
31.8063    0
31.8163    0
31.8263    0
31.8364    0
31.8464    0
31.8564    0
31.8664    0
31.8765    0
31.8865    0
31.8965    0
31.9066    0
31.9166    0
31.9266    0
31.9367    0
31.9467    0
31.9567    0
31.9668    0
31.9768    0
31.9868    0
31.9969    0
32.0069    0
32.0169    0
 32.027    2
 32.037    0
 32.047    0
32.0571    0
32.0671    0
32.0771    0
32.0872    0
32.0972    0
32.1072    0
32.1172    0
32.1273    0
32.1373    0
32.1473    0
32.1574    0
32.1674    0
32.1774    0
32.1875    0
32.1975    0
32.2075    0
32.2176    0
32.2276    0
32.2376    0
32.2477    0
32.2577    0
32.2677    0
32.2778    0
32.2878    0
32.2978    0
32.3079    0
32.3179    0
32.3279    0
 32.338    0
 32.348    0
 32.358    0
 32.368    0
32.3781    0
32.3881    0
32.3981    0
32.4082    0
32.4182    0
32.4282    0
32.4383    0
32.4483    1
32.4583    0
32.4684    0
32.4784    0
32.4884    0
32.4985    0
32.5085    0
32.5185    1
32.5286    0
32.5386    0
32.5486    0
32.5587    0
32.5687    0
32.5787    0
32.5888    0
32.5988    0
32.6088    0
32.6188    0
32.6289    0
32.6389    0
32.6489    0
 32.659    0
 32.669    0
 32.679    0
32.6891    0
32.6991    0
32.7091    1
32.7192    0
32.7292    0
32.7392    0
32.7493    0
32.7593    0
32.7693    0
32.7794    0
32.7894    0
32.7994    0
32.8095    0
32.8195    0
32.8295    0
32.8396    0
32.8496    0
32.8596    0
32.8696    0
32.8797    0
32.8897    0
32.8997    0
32.9098    0
32.9198    0
32.9298    0
32.9399    0
32.9499    0
32.9599    0
  32.97    0
  32.98    0
  32.99    0
33.0001    0
33.0101    0
33.0201    0
33.0302    0
33.0402    0
33.0502    0
33.0603    0
33.0703    0
33.0803    0
33.0904    0
33.1004    0
33.1104    0
33.1204    0
33.1305    0
33.1405    0
33.1505    0
33.1606    0
33.1706    1
33.1806    0
33.1907    0
33.2007    0
33.2107    0
33.2208    0
33.2308    0
33.2408    0
33.2509    0
33.2609    0
33.2709    0
 33.281    0
 33.291    0
 33.301    0
33.3111    0
33.3211    0
33.3311    0
33.3412    0
33.3512    0
33.3612    0
33.3712    0
33.3813    0
33.3913    0
33.4013    0
33.4114    0
33.4214    0
33.4314    0
33.4415    0
33.4515    0
33.4615    0
33.4716    0
33.4816    0
33.4916    0
33.5017    0
33.5117    0
33.5217    0
33.5318    0
33.5418    0
33.5518    0
33.5619    0
33.5719    0
33.5819    0
 33.592    0
 33.602    0
 33.612    0
 33.622    0
33.6321    2
33.6421    0
33.6521    0
33.6622    0
33.6722    0
33.6822    0
33.6923    0
33.7023    0
33.7123    0
33.7224    0
33.7324    0
33.7424    1
33.7525    0
33.7625    0
33.7725    0
33.7826    0
33.7926    0
33.8026    0
33.8127    0
33.8227    0
33.8327    0
33.8428    0
33.8528    1
33.8628    0
33.8728    0
33.8829    0
33.8929    0
33.9029    0
 33.913    0
 33.923    0
 33.933    0
33.9431    0
33.9531    0
33.9631    0
33.9732    0
33.9832    0
33.9932    0
34.0033    0
34.0133    0
34.0233    1
34.0334    0
34.0434    0
34.0534    0
34.0635    0
34.0735    0
34.0835    0
34.0936    0
34.1036    0
34.1136    1
34.1236    0
34.1337    1
34.1437    0
34.1537    0
34.1638    0
34.1738    0
34.1838    0
34.1939    0
34.2039    0
34.2139    0
 34.224    0
 34.234    0
 34.244    0
34.2541    0
34.2641    0
34.2741    0
34.2842    0
34.2942    0
34.3042    0
34.3143    0
34.3243    0
34.3343    0
34.3444    0
34.3544    0
34.3644    0
34.3744    0
34.3845    0
34.3945    0
34.4045    0
34.4146    0
34.4246    0
34.4346    0
34.4447    0
34.4547    0
34.4647    0
34.4748    0
34.4848    0
34.4948    0
34.5049    0
34.5149    0
34.5249    0
 34.535    0
 34.545    0
 34.555    0
34.5651    0
34.5751    0
34.5851    0
34.5952    0
34.6052    0
34.6152    0
34.6252    0
34.6353    0
34.6453    0
34.6553    0
34.6654    0
34.6754    0
34.6854    0
34.6955    0
34.7055    0
34.7155    0
34.7256    0
34.7356    0
34.7456    0
34.7557    0
34.7657    0
34.7757    0
34.7858    0
34.7958    0
34.8058    0
34.8159    0
34.8259    0
34.8359    0
 34.846    0
 34.856    0
 34.866    0
 34.876    0
34.8861    0
34.8961    0
34.9061    0
34.9162    0
34.9262    0
34.9362    0
34.9463    0
34.9563    0
34.9663    0
34.9764    0
34.9864    0
34.9964    0
35.0065    0
35.0165    0
35.0265    0
35.0366    0
35.0466    0
35.0566    0
35.0667    0
35.0767    0
35.0867    0
35.0968    0
35.1068    0
35.1168    0
35.1268    0
35.1369    0
35.1469    0
35.1569    0
 35.167    0
 35.177    0
 35.187    0
35.1971    0
35.2071    0
35.2171    0
35.2272    0
35.2372    0
35.2472    0
35.2573    0
35.2673    0
35.2773    0
35.2874    0
35.2974    0
35.3074    0
35.3175    0
35.3275    0
35.3375    0
35.3476    0
35.3576    0
35.3676    0
35.3776    0
35.3877    0
35.3977    1
35.4077    0
35.4178    0
35.4278    0
35.4378    0
35.4479    0
35.4579    0
35.4679    0
 35.478    0
 35.488    0
 35.498    0
35.5081    0
35.5181    1
35.5281    0
35.5382    0
35.5482    0
35.5582    0
35.5683    0
35.5783    0
35.5883    0
35.5984    0
35.6084    0
35.6184    0
35.6284    0
35.6385    0
35.6485    0
35.6585    0
35.6686    0
35.6786    0
35.6886    0
35.6987    0
35.7087    0
35.7187    0
35.7288    0
35.7388    0
35.7488    0
35.7589    1
35.7689    0
35.7789    0
 35.789    0
 35.799    0
 35.809    0
35.8191    0
35.8291    0
35.8391    0
35.8492    0
35.8592    0
35.8692    0
35.8792    0
35.8893    0
35.8993    0
35.9093    0
35.9194    0
35.9294    0
35.9394    0
35.9495    0
35.9595    0
35.9695    0
35.9796    0
35.9896    0
35.9996    0
36.0097    0
36.0197    0
36.0297    0
36.0398    1
36.0498    0
36.0598    0
36.0699    0
36.0799    0
36.0899    0
   36.1    0
  36.11    0
  36.12    0
  36.13    0
36.1401    0
36.1501    0
36.1601    0
36.1702    0
36.1802    0
36.1902    0
36.2003    0
36.2103    0
36.2203    0
36.2304    0
36.2404    0
36.2504    0
36.2605    0
36.2705    0
36.2805    0
36.2906    0
36.3006    0
36.3106    0
36.3207    0
36.3307    0
36.3407    0
36.3508    0
36.3608    0
36.3708    0
36.3808    0
36.3909    0
36.4009    0
36.4109    0
 36.421    0
 36.431    0
 36.441    0
36.4511    0
36.4611    0
36.4711    0
36.4812    0
36.4912    0
36.5012    0
36.5113    0
36.5213    0
36.5313    0
36.5414    0
36.5514    0
36.5614    0
36.5715    0
36.5815    1
36.5915    0
36.6016    0
36.6116    0
36.6216    0
36.6316    0
36.6417    0
36.6517    0
36.6617    0
36.6718    0
36.6818    0
36.6918    0
36.7019    0
36.7119    0
36.7219    0
 36.732    0
 36.742    0
 36.752    0
36.7621    0
36.7721    0
36.7821    0
36.7922    0
36.8022    0
36.8122    0
36.8223    0
36.8323    0
36.8423    0
36.8524    0
36.8624    0
36.8724    0
36.8824    0
36.8925    0
36.9025    0
36.9125    0
36.9226    0
36.9326    0
36.9426    0
36.9527    0
36.9627    0
36.9727    0
36.9828    0
36.9928    0
37.0028    0
37.0129    0
37.0229    0
37.0329    0
 37.043    0
 37.053    0
 37.063    0
37.0731    0
37.0831    0
37.0931    0
37.1032    0
37.1132    0
37.1232    0
37.1332    0
37.1433    0
37.1533    0
37.1633    0
37.1734    0
37.1834    0
37.1934    0
37.2035    0
37.2135    0
37.2235    0
37.2336    0
37.2436    0
37.2536    0
37.2637    0
37.2737    0
37.2837    0
37.2938    0
37.3038    0
37.3138    0
37.3239    0
37.3339    0
37.3439    0
 37.354    0
 37.364    0
 37.374    0
 37.384    0
37.3941    0
37.4041    0
37.4141    0
37.4242    0
37.4342    0
37.4442    0
37.4543    0
37.4643    0
37.4743    0
37.4844    0
37.4944    0
37.5044    0
37.5145    0
37.5245    0
37.5345    0
37.5446    0
37.5546    0
37.5646    0
37.5747    0
37.5847    0
37.5947    0
37.6048    0
37.6148    0
37.6248    0
37.6348    0
37.6449    0
37.6549    0
37.6649    0
 37.675    0
 37.685    0
 37.695    0
37.7051    0
37.7151    0
37.7251    0
37.7352    0
37.7452    0
37.7552    0
37.7653    0
37.7753    0
37.7853    0
37.7954    0
37.8054    0
37.8154    0
37.8255    0
37.8355    0
37.8455    0
37.8556    0
37.8656    0
37.8756    0
37.8856    0
37.8957    0
37.9057    0
37.9157    0
37.9258    0
37.9358    0
37.9458    0
37.9559    0
37.9659    0
37.9759    0
 37.986    0
 37.996    0
 38.006    0
38.0161    0
38.0261    0
38.0361    0
38.0462    0
38.0562    0
38.0662    0
38.0763    0
38.0863    0
38.0963    0
38.1064    0
38.1164    0
38.1264    0
38.1364    0
38.1465    0
38.1565    1
38.1665    1
38.1766    0
38.1866    0
38.1966    0
38.2067    0
38.2167    0
38.2267    0
38.2368    0
38.2468    0
38.2568    0
38.2669    0
38.2769    0
38.2869    0
 38.297    0
 38.307    0
 38.317    0
38.3271    0
38.3371    0
38.3471    0
38.3572    0
38.3672    0
38.3772    0
38.3872    0
38.3973    0
38.4073    0
38.4173    0
38.4274    0
38.4374    0
38.4474    0
38.4575    0
38.4675    0
38.4775    0
38.4876    0
38.4976    0
38.5076    0
38.5177    0
38.5277    0
38.5377    0
38.5478    0
38.5578    0
38.5678    0
38.5779    0
38.5879    0
38.5979    0
 38.608    0
 38.618    0
 38.628    0
 38.638    0
38.6481    0
38.6581    0
38.6681    0
38.6782    0
38.6882    0
38.6982    0
38.7083    0
38.7183    0
38.7283    0
38.7384    0
38.7484    0
38.7584    0
38.7685    0
38.7785    0
38.7885    0
38.7986    0
38.8086    0
38.8186    0
38.8287    0
38.8387    0
38.8487    0
38.8588    1
38.8688    0
38.8788    0
38.8888    0
38.8989    0
38.9089    0
38.9189    0
 38.929    0
 38.939    0
 38.949    0
38.9591    0
38.9691    0
38.9791    0
38.9892    0
38.9992    0
39.0092    0
39.0193    0
39.0293    0
39.0393    0
39.0494    0
39.0594    0
39.0694    0
39.0795    0
39.0895    0
39.0995    0
39.1096    0
39.1196    0
39.1296    0
39.1396    0
39.1497    0
39.1597    0
39.1697    0
39.1798    0
39.1898    0
39.1998    0
39.2099    0
39.2199    0
39.2299    0
  39.24    0
  39.25    0
  39.26    0
39.2701    0
39.2801    0
39.2901    0
39.3002    0
39.3102    0
39.3202    0
39.3303    0
39.3403    0
39.3503    0
39.3604    0
39.3704    0
39.3804    0
39.3904    0
39.4005    0
39.4105    0
39.4205    0
39.4306    0
39.4406    0
39.4506    0
39.4607    0
39.4707    0
39.4807    0
39.4908    0
39.5008    0
39.5108    0
39.5209    0
39.5309    0
39.5409    0
 39.551    0
 39.561    0
 39.571    0
39.5811    0
39.5911    0
39.6011    0
39.6112    0
39.6212    0
39.6312    0
39.6412    0
39.6513    0
39.6613    0
39.6713    0
39.6814    0
39.6914    0
39.7014    0
39.7115    0
39.7215    0
39.7315    0
39.7416    0
39.7516    0
39.7616    0
39.7717    0
39.7817    0
39.7917    0
39.8018    0
39.8118    0
39.8218    0
39.8319    0
39.8419    0
39.8519    0
 39.862    0
 39.872    0
 39.882    1
 39.892    0
39.9021    0
39.9121    0
39.9221    0
39.9322    0
39.9422    0
39.9522    0
39.9623    0
39.9723    0
39.9823    0
39.9924    0
40.0024    0
40.0124    0
40.0225    0
40.0325    0
40.0425    0
40.0526    0
40.0626    0
40.0726    0
40.0827    0
40.0927    0
40.1027    0
40.1128    0
40.1228    0
